Folder: code

File: razerblade2017_batterylog
Designed Capacity: 70224

Charge Cycle 	Date	    Full Charge Capacity

5 				5/15 2017 	74000
6 				5/16 2017
7 				5/17 2017	72538
8-9				5/23 2017   73268
10				5/24 2017   72709
11				5/25 2017   73530
12				5/28 2017   73221
13				5/29 2017   73097